File: XPS-F1s.csv
Point6
3
F1s
1
699.8767,3443.33
699.7517,3399.05
699.6267,3347.86
699.5017,3343.97
699.3767,3336.83
699.2517,3263.02
699.1267,3170.32
699.0017,3115.08
698.8767,3091.27
698.7517,3104.84
698.6267,3128.97
698.5017,3103.49
698.3767,3055.95
698.2517,3014.76
698.1267,3017.54
698.0017,3028.57
697.8767,3056.59
697.7517,3067.46
697.6267,3092.94
697.5017,3081.83
697.3767,3071.51
697.2517,3045.08
697.1267,2979.44
697.0017,2910.4
696.8767,2900.56
696.7517,2899.84
696.6267,2891.59
696.5017,2910.71
696.3767,2906.03
696.2517,2878.1
696.1267,2834.44
696.0017,2816.98
695.8767,2774.76
695.7517,2739.92
695.6267,2713.97
695.5017,2704.92
695.3767,2677.22
695.2517,2687.06
695.1267,2683.57
695.0017,2649.13
694.8767,2596.43
694.7517,2596.67
694.6267,2610.56
694.5017,2621.98
694.3767,2621.67
694.2517,2590.4
694.1267,2591.51
694.0017,2629.13
693.8767,2688.41
693.7517,2716.83
693.6267,2746.51
693.5017,2723.81
693.3767,2689.36
693.2517,2702.38
693.1267,2753.1
693.0017,2840.56
692.8767,2958.49
692.7517,3076.67
692.6267,3173.81
692.5017,3296.83
692.3767,3486.75
692.2517,3712.86
692.1267,3889.6
692.0017,4155.87
691.8767,4490.63
691.7517,4866.03
691.6267,5425.24
691.5017,6022.54
691.3767,6696.35
691.2517,7565
691.1267,8580.08
691.0017,9801.67
690.8767,11351.7
690.7517,13115.6
690.6267,15223.7
690.5017,17653.6
690.3767,20288.3
690.2517,23263.6
690.1267,26766.5
690.0017,30437.9
689.8767,34367.7
689.7517,38591.1
689.6267,42837.5
689.5017,46791.5
689.3767,50569.3
689.2517,53878.3
689.1267,56474
689.0017,58291.6
688.8767,59119.9
688.7517,58546.5
688.6267,56915.6
688.5017,54340.6
688.3767,50932.4
688.2517,46666.1
688.1267,41905.5
688.0017,36851.8
687.8767,32000.7
687.7517,27336.7
687.6267,23180.8
687.5017,19465.5
687.3767,16217.5
687.2517,13575.3
687.1267,11470.9
687.0017,9709.36
686.8767,8311.75
686.7517,7300
686.6267,6448.65
686.5017,5873.02
686.3767,5363.65
686.2517,4928.73
686.1267,4576.03
686.0017,4305.08
685.8767,4056.19
685.7517,3851.27
685.6267,3752.54
685.5017,3700.24
685.3767,3635.95
685.2517,3543.81
685.1267,3416.83
685.0017,3228.25
684.8767,3122.7
684.7517,3015.4
684.6267,2921.59
684.5017,2839.36
684.3767,2738.89
684.2517,2672.3
684.1267,2629.84
684.0017,2560.4
683.8767,2493.49
683.7517,2429.52
683.6267,2319.92
683.5017,2297.38
683.3767,2330.56
683.2517,2305.63
683.1267,2273.65
683.0017,2218.57
682.8767,2115.87
682.7517,2090.24
682.6267,2108.25
682.5017,2088.81
682.3767,2083.17
682.2517,2090.71
682.1267,2099.13
682.0017,2105.95
681.8767,2065.87
681.7517,2020.63
681.6267,1991.9
681.5017,1985.79
681.3767,2034.44
681.2517,2020.4
681.1267,2010.63
681.0017,2020
680.8767,2026.03
680.7517,2012.78
680.6267,2033.89
680.5017,1963.81
680.3767,1966.59
680.2517,1959.29
680.1267,1961.11
680.0017,2008.02
679.8767,2045

Point6
3
Fe2p
1
739.8767,7424.75
739.7517,7440.27
739.6267,7451.87
739.5017,7453.71
739.3767,7446.15
739.2517,7456.88
739.1267,7452.58
739.0017,7464.33
738.8767,7465.87
738.7517,7471.95
738.6267,7461.65
738.5017,7467.92
738.3767,7460.44
738.2517,7466.49
738.1267,7462.56
738.0017,7470.19
737.8767,7453.83
737.7517,7442.53
737.6267,7428.43
737.5017,7427.74
737.3767,7435.27
737.2517,7459.65
737.1267,7459.05
737.0017,7464.52
736.8767,7453.71
736.7517,7437.76
736.6267,7454.51
736.5017,7460.75
736.3767,7450.11
736.2517,7448.78
736.1267,7448.41
736.0017,7442.01
735.8767,7445.25
735.7517,7439.24
735.6267,7434.37
735.5017,7422.3
735.3767,7438.63
735.2517,7438.01
735.1267,7422.12
735.0017,7417.87
734.8767,7413.12
734.7517,7396.56
734.6267,7396.78
734.5017,7389.75
734.3767,7372.72
734.2517,7374.55
734.1267,7364.9
734.0017,7370.69
733.8767,7363.3
733.7517,7357.03
733.6267,7342.08
733.5017,7329.25
733.3767,7304.21
733.2517,7304.75
733.1267,7299.64
733.0017,7301.35
732.8767,7302.28
732.7517,7299.84
732.6267,7289.88
732.5017,7287.72
732.3767,7278.96
732.2517,7259.15
732.1267,7246.15
732.0017,7231.21
731.8767,7230.07
731.7517,7227.96
731.6267,7211.58
731.5017,7203.12
731.3767,7199.3
731.2517,7190.5
731.1267,7182.37
731.0017,7169.22
730.8767,7159.02
730.7517,7179.75
730.6267,7177.56
730.5017,7178.13
730.3767,7168.92
730.2517,7155.77
730.1267,7148.41
730.0017,7150.13
729.8767,7132.75
729.7517,7132.3
729.6267,7133.54
729.5017,7138.32
729.3767,7132.05
729.2517,7127.69
729.1267,7118.6
729.0017,7122.63
728.8767,7120.57
728.7517,7130.88
728.6267,7141.02
728.5017,7170.77
728.3767,7178.67
728.2517,7197.69
728.1267,7198.88
728.0017,7202.43
727.8767,7218.54
727.7517,7232.9
727.6267,7230.02
727.5017,7243.65
727.3767,7250.08
727.2517,7272.54
727.1267,7310.22
727.0017,7328.46
726.8767,7336.22
726.7517,7346.03
726.6267,7349.7
726.5017,7373.04
726.3767,7387.36
726.2517,7403.25
726.1267,7423.77
726.0017,7428.31
725.8767,7446.15
725.7517,7477.56
725.6267,7492.27
725.5017,7504.8
725.3767,7526.91
725.2517,7524.6
725.1267,7540.99
725.0017,7561.05
724.8767,7579
724.7517,7584.08
724.6267,7600.31
724.5017,7598.59
724.3767,7607.33
724.2517,7604.25
724.1267,7587.82
724.0017,7579.75
723.8767,7577.73
723.7517,7568.82
723.6267,7582.52
723.5017,7588.99
723.3767,7582.11
723.2517,7574.02
723.1267,7572.52
723.0017,7562.2
722.8767,7558.18
722.7517,7560.57
722.6267,7572.91
722.5017,7565.71
722.3767,7577.77
722.2517,7591.9
722.1267,7583.95
722.0017,7592.02
721.8767,7604.82
721.7517,7601.46
721.6267,7602.7
721.5017,7622.16
721.3767,7639.59
721.2517,7657.68
721.1267,7673.31
721.0017,7693.24
720.8767,7703.1
720.7517,7716.53
720.6267,7738.65
720.5017,7751.72
720.3767,7757.98
720.2517,7767.79
720.1267,7768.57
720.0017,7773.62
719.8767,7790.32
719.7517,7806.73
719.6267,7799.82
719.5017,7794.99
719.3767,7790.69
719.2517,7792.51
719.1267,7795.3
719.0017,7799.56
718.8767,7793.09
718.7517,7780.87
718.6267,7780.26
718.5017,7778.21
718.3767,7757.52
718.2517,7756.11
718.1267,7741.77
718.0017,7708.64
717.8767,7695.69
717.7517,7684.56
717.6267,7671.36
717.5017,7688.25
717.3767,7686.29
717.2517,7677.48
717.1267,7670.14
717.0017,7668.93
716.8767,7661.95
716.7517,7662.92
716.6267,7651.78
716.5017,7653.14
716.3767,7661.03
716.2517,7671.65
716.1267,7675.97
716.0017,7665.58
715.8767,7663.64
715.7517,7659.29
715.6267,7678.39
715.5017,7669.34
715.3767,7657.26
715.2517,7651.61
715.1267,7650.08
715.0017,7652.65
714.8767,7662.18
714.7517,7659.46
714.6267,7661.27
714.5017,7671.09
714.3767,7682.61
714.2517,7710.01
714.1267,7717.74
714.0017,7705.48
713.8767,7709.98
713.7517,7711.22
713.6267,7729.57
713.5017,7751.15
713.3767,7775.64
713.2517,7776.73
713.1267,7792.07
713.0017,7811.33
712.8767,7830.04
712.7517,7834.39
712.6267,7856.19
712.5017,7890.02
712.3767,7915.48
712.2517,7943.75
712.1267,7949.44
712.0017,7953.38
711.8767,7976.13
711.7517,7987.94
711.6267,7990.12
711.5017,7998.21
711.3767,7981.34
711.2517,7989.37
711.1267,7992.69
711.0017,7963.17
710.8767,7936.31
710.7517,7890.19
710.6267,7845.5
710.5017,7794.92
710.3767,7720.85
710.2517,7659.91
710.1267,7587.51
710.0017,7482.59
709.8767,7395.36
709.7517,7290.26
709.6267,7177.79
709.5017,7093.62
709.3767,6994.63
709.2517,6876.52
709.1267,6766.42
709.0017,6685.14
708.8767,6607.25
708.7517,6535.63
708.6267,6467.49
708.5017,6383.79
708.3767,6303.59
708.2517,6248.73
708.1267,6191.88
708.0017,6129.89
707.8767,6083.24
707.7517,6038.6
707.6267,5986.71
707.5017,5944.73
707.3767,5901.39
707.2517,5861.2
707.1267,5834.56
707.0017,5808.77
706.8767,5781.33
706.7517,5748.11
706.6267,5716.52
706.5017,5705.04
706.3767,5695.45
706.2517,5676.74
706.1267,5661.75
706.0017,5621.25
705.8767,5585.47
705.7517,5561.02
705.6267,5531.38
705.5017,5488.52
705.3767,5452.61
705.2517,5401.83
705.1267,5373.77
705.0017,5333.56
704.8767,5283.09
704.7517,5231.31
704.6267,5183.86
704.5017,5119.82
704.3767,5076.85
704.2517,5010.4
704.1267,4949.79
704.0017,4909.1
703.8767,4875.98
703.7517,4815.46
703.6267,4746.34
703.5017,4674.19
703.3767,4608.36
703.2517,4561.78
703.1267,4522.31
703.0017,4479.84
702.8767,4439.17
702.7517,4397.69
702.6267,4356.74
702.5017,4317.95
702.3767,4272.78
702.2517,4236.09
702.1267,4204.02
702.0017,4155.41
701.8767,4125.69
701.7517,4086.42
701.6267,4050.36
701.5017,4029.54
701.3767,3998.8
701.2517,3961.59
701.1267,3925.79
701.0017,3878.49
700.8767,3838.56
700.7517,3805.83
700.6267,3756.69
700.5017,3721.27
700.3767,3671.6
700.2517,3623.28
700.1267,3575.55
700.0017,3518.5
699.8767,3470.17