File: XPS-Cr2p.csv
Point6
3
Cr2p
1
606.8767,1981
606.7517,1984.71
606.6267,1982.33
606.5017,1983.72
606.3767,1978.43
606.2517,1972.07
606.1267,1970.5
606.0017,1966.33
605.8767,1963.24
605.7517,1970.48
605.6267,1968.59
605.5017,1967.24
605.3767,1971.55
605.2517,1971.97
605.1267,1972.29
605.0017,1980.51
604.8767,1978.36
604.7517,1975.78
604.6267,1982.23
604.5017,1977.86
604.3767,1981.43
604.2517,1987.05
604.1267,1986.69
604.0017,1986.72
603.8767,1990.79
603.7517,1988.9
603.6267,1980.23
603.5017,1976.32
603.3767,1971.27
603.2517,1966.12
603.1267,1963.66
603.0017,1965.11
602.8767,1962.2
602.7517,1968.58
602.6267,1976.4
602.5017,1976.53
602.3767,1969.88
602.2517,1973.28
602.1267,1968.54
602.0017,1965.1
601.8767,1967.69
601.7517,1969.71
601.6267,1963.17
601.5017,1964.02
601.3767,1963.93
601.2517,1961.83
601.1267,1965.91
601.0017,1971.92
600.8767,1964.35
600.7517,1960.21
600.6267,1957.46
600.5017,1959.97
600.3767,1964.07
600.2517,1965.99
600.1267,1957.43
600.0017,1959.43
599.8767,1947.22
599.7517,1955.98
599.6267,1962.35
599.5017,1968.37
599.3767,1972.26
599.2517,1975.26
599.1267,1967.99
599.0017,1968.96
598.8767,1969.57
598.7517,1973.19
598.6267,1974.21
598.5017,1969.32
598.3767,1971.87
598.2517,1974.96
598.1267,1972.86
598.0017,1976.62
597.8767,1977.89
597.7517,1986.38
597.6267,1990.48
597.5017,1989.73
597.3767,1982.13
597.2517,1964.05
597.1267,1959.25
597.0017,1958.48
596.8767,1954.73
596.7517,1956.24
596.6267,1959.03
596.5017,1950.01
596.3767,1961.55
596.2517,1964.19
596.1267,1968.01
596.0017,1975.33
595.8767,1974.6
595.7517,1962.49
595.6267,1958.43
595.5017,1948.57
595.3767,1947.17
595.2517,1950.95
595.1267,1948.94
595.0017,1945.71
594.8767,1942.19
594.7517,1939.25
594.6267,1941.33
594.5017,1939.93
594.3767,1944.15
594.2517,1949.45
594.1267,1950.29
594.0017,1950.35
593.8767,1954.29
593.7517,1948.08
593.6267,1948.4
593.5017,1940.03
593.3767,1936.06
593.2517,1934.89
593.1267,1943.42
593.0017,1943.18
592.8767,1942.62
592.7517,1931.5
592.6267,1927.33
592.5017,1928.44
592.3767,1940.74
592.2517,1941.27
592.1267,1950.46
592.0017,1955.12
591.8767,1956.81
591.7517,1952.04
591.6267,1949.47
591.5017,1941.11
591.3767,1946.52
591.2517,1955.28
591.1267,1953.43
591.0017,1945.52
590.8767,1941.67
590.7517,1949.12
590.6267,1948.39
590.5017,1949.34
590.3767,1950.51
590.2517,1952.68
590.1267,1957.45
590.0017,1965.52
589.8767,1956.17
589.7517,1961.33
589.6267,1971.77
589.5017,1975.35
589.3767,1976.05
589.2517,1973.46
589.1267,1968.75
589.0017,1978.12
588.8767,1985.54
588.7517,1987.13
588.6267,1995.88
588.5017,2000.62
588.3767,2000.75
588.2517,1998.75
588.1267,1998.87
588.0017,2003.45
587.8767,2010.23
587.7517,2020.16
587.6267,2028.43
587.5017,2032.44
587.3767,2036.44
587.2517,2044.86
587.1267,2041.07
587.0017,2038.62
586.8767,2048
586.7517,2049.49
586.6267,2056.71
586.5017,2063.68
586.3767,2064.95
586.2517,2052.19
586.1267,2040.81
586.0017,2020.7
585.8767,2012.89
585.7517,2025.51
585.6267,2034.83
585.5017,2027.27
585.3767,2014.58
585.2517,1992.45
585.1267,1971.65
585.0017,1963.31
584.8767,1948.96
584.7517,1936.95
584.6267,1938.06
584.5017,1941.02
584.3767,1949.66
584.2517,1948.37
584.1267,1944.81
584.0017,1938.45
583.8767,1928.08
583.7517,1915.62
583.6267,1917.24
583.5017,1918.88
583.3767,1924.17
583.2517,1922.06
583.1267,1919.64
583.0017,1915.31
582.8767,1918.83
582.7517,1920.18
582.6267,1914.15
582.5017,1912.6
582.3767,1911.75
582.2517,1914.3
582.1267,1920.7
582.0017,1923.82
581.8767,1916.77
581.7517,1922.73
581.6267,1922.54
581.5017,1922.11
581.3767,1916.26
581.2517,1910.88
581.1267,1913
581.0017,1923.52
580.8767,1932.25
580.7517,1941.47
580.6267,1937.06
580.5017,1935.39
580.3767,1929.52
580.2517,1928.12
580.1267,1928.36
580.0017,1937.77
579.8767,1934.28
579.7517,1933.65
579.6267,1930.16
579.5017,1940.81
579.3767,1954.02
579.2517,1966.96
579.1267,1974.62
579.0017,1972.49
578.8767,1981.45
578.7517,1989.9
578.6267,1994.17
578.5017,1995
578.3767,2011.94
578.2517,2021.34
578.1267,2041.58
578.0017,2056.83
577.8767,2063.91
577.7517,2070.97
577.6267,2078.38
577.5017,2089.07
577.3767,2101.72
577.2517,2118.27
577.1267,2123.66
577.0017,2129.11
576.8767,2121.21
576.7517,2122.27
576.6267,2117.2
576.5017,2114.11
576.3767,2099.02
576.2517,2093.85
576.1267,2083.49
576.0017,2078.31
575.8767,2067.35
575.7517,2046.38
575.6267,2012.32
575.5017,1986.12
575.3767,1961.67
575.2517,1946.22
575.1267,1931.81
575.0017,1908.62
574.8767,1892.01
574.7517,1884.23
574.6267,1882.34
574.5017,1885.28
574.3767,1886.82
574.2517,1886.89
574.1267,1882.87
574.0017,1875.83
573.8767,1869.72
573.7517,1861.69
573.6267,1854.16
573.5017,1860.12
573.3767,1855.94
573.2517,1852.78
573.1267,1865.9
573.0017,1865.92
572.8767,1860.79
572.7517,1862.55
572.6267,1857.16
572.5017,1847.15
572.3767,1848.29
572.2517,1847.43
572.1267,1848.22
572.0017,1851.59
571.8767,1856.34
571.7517,1853.03
571.6267,1857.65
571.5017,1858.09
571.3767,1856.58
571.2517,1845.87
571.1267,1842.58
571.0017,1842.23
570.8767,1853.3
570.7517,1848.39
570.6267,1849.82
570.5017,1846.4
570.3767,1840.33
570.2517,1841.17
570.1267,1842.5
570.0017,1837.51
569.8767,1842.21
569.7517,1849.75
569.6267,1847.56
569.5017,1844.78
569.3767,1842.42
569.2517,1840.62
569.1267,1841.93
569.0017,1842.26
568.8767,1846.2
568.7517,1843.52
568.6267,1847.23
568.5017,1852.43
568.3767,1850.22
568.2517,1842.79
568.1267,1838.08
568.0017,1834.66
567.8767,1846.48
567.7517,1850.93
567.6267,1851.74
567.5017,1848.14
567.3767,1841.38
567.2517,1834.12
567.1267,1835.95
567.0017,1841.56
566.8767,1856.33